Ax,Ay,Az
0.00,0.00,0.00
0.00,0.00,0.00
0.00,0.00,0.00
0.00,0.00,0.00
0.00,0.00,0.00
0.00,0.00,0.00
0.13,0.06,-0.36
0.13,0.06,-0.36
0.13,0.06,-0.36
0.13,0.06,-0.36
0.13,0.06,-0.36
0.13,0.06,-0.36
0.13,0.06,-0.36
0.13,0.06,-0.36
-0.12,0.13,-1.04
-0.12,0.13,-1.04
-0.12,0.13,-1.04
-0.12,0.13,-1.04
-0.12,0.13,-1.04
-0.12,0.13,-1.04
-0.12,0.13,-1.04
-0.12,0.13,-1.04
-0.12,0.13,-1.04
-0.12,0.13,-1.04
-0.12,0.13,-1.04
0.00,0.05,-0.10
0.00,0.05,-0.10
0.00,0.05,-0.10
0.00,0.05,-0.10
0.00,0.05,-0.10
0.00,0.05,-0.10
0.00,0.05,-0.10
0.00,0.05,-0.10
0.00,0.05,0.05
-0.02,0.05,0.04
-0.02,0.05,0.04
-0.02,0.05,0.04
-0.02,0.05,0.04
-0.02,0.05,0.04
-0.02,0.05,0.04
-0.02,0.05,0.04
-0.02,0.05,0.04
-0.05,-0.00,0.19
-0.05,-0.00,0.19
-0.05,-0.00,0.19
-0.05,-0.00,0.19
-0.05,-0.00,0.19
-0.05,-0.00,0.19
-0.05,-0.00,0.19
-0.05,-0.00,0.19
-0.05,-0.05,0.36
-0.03,-0.05,0.36
-0.03,-0.05,0.36
-0.03,-0.05,0.36
-0.03,-0.05,0.36
-0.03,-0.05,0.36
-0.03,-0.05,0.36
-0.03,-0.05,0.36
-0.03,-0.05,0.58
-0.03,-0.09,0.58
-0.03,-0.09,0.58
-0.03,-0.09,0.58
-0.03,-0.09,0.58
-0.03,-0.09,0.58
-0.03,-0.09,0.58
-0.03,-0.09,0.58
-0.03,-0.09,0.58
-0.09,-0.13,0.83
-0.09,-0.13,0.83
-0.09,-0.13,0.83
-0.09,-0.13,0.83
-0.09,-0.13,0.83
-0.09,-0.13,0.83
-0.09,-0.13,0.83
-0.09,-0.13,0.83
-0.09,-0.17,1.06
-0.18,-0.17,1.06
-0.18,-0.17,1.06
-0.18,-0.17,1.06
-0.18,-0.17,1.06
-0.18,-0.17,1.06
-0.18,-0.17,1.06
-0.18,-0.17,1.06
-0.18,-0.17,1.06
-0.26,-0.16,1.29
-0.26,-0.16,1.29
-0.26,-0.16,1.29
-0.26,-0.16,1.29
-0.26,-0.16,1.29
-0.26,-0.16,1.29
-0.26,-0.16,1.29
-0.26,-0.16,1.29
-0.33,-0.15,1.55
-0.33,-0.15,1.55
-0.33,-0.15,1.55
-0.33,-0.15,1.55
-0.33,-0.15,1.55
-0.33,-0.15,1.55
-0.33,-0.15,1.55
-0.33,-0.15,1.55
-0.33,-0.15,1.78
-0.41,-0.14,1.78
-0.41,-0.14,1.78
-0.41,-0.14,1.78
-0.41,-0.14,1.78
-0.41,-0.14,1.78
-0.41,-0.14,1.78
-0.41,-0.14,1.78
-0.41,-0.14,1.78
-0.55,-0.11,1.87
-0.55,-0.11,1.87
-0.55,-0.11,1.87
-0.55,-0.11,1.87
-0.55,-0.11,1.87
-0.55,-0.11,1.87
-0.55,-0.11,1.87
-0.55,-0.11,1.87
-0.43,-0.06,2.11
-0.43,-0.06,2.11
-0.43,-0.06,2.11
-0.43,-0.06,2.11
-0.43,-0.06,2.11
-0.43,-0.06,2.11
-0.43,-0.06,2.11
-0.43,-0.06,2.11
-0.43,-0.06,2.44
-0.41,-0.14,2.44
-0.41,-0.14,2.44
-0.41,-0.14,2.44
-0.41,-0.14,2.44
-0.41,-0.14,2.44
-0.41,-0.14,2.44
-0.41,-0.14,2.44
-0.41,-0.14,2.44
-0.29,-0.04,2.70
-0.29,-0.04,2.70
-0.29,-0.04,2.70
-0.29,-0.04,2.70
-0.29,-0.04,2.70
-0.29,-0.04,2.70
-0.29,-0.04,2.70
-0.29,-0.04,2.70
-0.46,-0.12,2.78
-0.46,-0.12,2.78
-0.46,-0.12,2.78
-0.46,-0.12,2.78
-0.46,-0.12,2.78
-0.46,-0.12,2.78
-0.46,-0.12,2.78
-0.46,-0.12,2.78
-0.46,0.01,2.96
-0.18,0.00,2.96
-0.18,0.00,2.96
-0.18,0.00,2.96
-0.18,0.00,2.96
-0.18,0.00,2.96
-0.18,0.00,2.96
-0.18,0.00,2.96
-0.18,0.00,2.96
-0.08,-0.09,3.12
-0.08,-0.09,3.12
-0.08,-0.09,3.12
-0.08,-0.09,3.12
-0.08,-0.09,3.12
-0.08,-0.09,3.12
-0.08,-0.09,3.12
-0.08,-0.09,3.12
-0.23,-0.15,3.23
-0.23,-0.15,3.23
-0.23,-0.15,3.23
-0.23,-0.15,3.23
-0.23,-0.15,3.23
-0.23,-0.15,3.23
-0.23,-0.15,3.23
-0.23,-0.15,3.23
-0.23,-0.15,3.29
-0.29,-0.16,3.29
-0.29,-0.16,3.29
-0.29,-0.16,3.29
-0.29,-0.16,3.29
-0.29,-0.16,3.29
-0.29,-0.16,3.29
-0.29,-0.16,3.29
-0.29,-0.16,3.29
-0.25,-0.14,3.27
-0.25,-0.14,3.27
-0.25,-0.14,3.27
-0.25,-0.14,3.27
-0.25,-0.14,3.27
-0.25,-0.14,3.27
-0.25,-0.14,3.27
-0.25,-0.14,3.27
-0.25,-0.11,3.17
-0.24,-0.11,3.17
-0.24,-0.11,3.17
-0.24,-0.11,3.17
-0.24,-0.11,3.17
-0.24,-0.11,3.17
-0.24,-0.11,3.17
-0.24,-0.11,3.17
-0.24,-0.11,3.17
-0.27,-0.14,3.04
-0.27,-0.14,3.04
-0.27,-0.14,3.04
-0.27,-0.14,3.04
-0.27,-0.14,3.04
-0.27,-0.14,3.04
-0.27,-0.14,3.04
-0.27,-0.14,3.04
-0.34,-0.16,2.91
-0.34,-0.16,2.91
-0.34,-0.16,2.91
-0.34,-0.16,2.91
-0.34,-0.16,2.91
-0.34,-0.16,2.91
-0.34,-0.16,2.91
-0.34,-0.16,2.91
-0.34,-0.19,2.76
-0.42,-0.17,2.76
-0.42,-0.17,2.76
-0.42,-0.17,2.76
-0.42,-0.17,2.76
-0.42,-0.17,2.76
-0.42,-0.17,2.76
-0.42,-0.17,2.76
-0.42,-0.17,2.76
-0.47,-0.17,2.60
-0.47,-0.17,2.60
-0.47,-0.17,2.60
-0.47,-0.17,2.60
-0.47,-0.17,2.60
-0.47,-0.17,2.60
-0.47,-0.17,2.60
-0.47,-0.17,2.60
-0.47,-0.17,2.41
-0.47,-0.17,2.41
-0.47,-0.17,2.41
-0.47,-0.17,2.41
-0.47,-0.17,2.41
-0.47,-0.17,2.41
-0.47,-0.17,2.41
-0.47,-0.17,2.41
-0.47,-0.17,2.21
-0.43,-0.17,2.21
-0.43,-0.17,2.21
-0.43,-0.17,2.21
-0.43,-0.17,2.21
-0.43,-0.17,2.21
-0.43,-0.17,2.21
-0.43,-0.17,2.21
-0.43,-0.17,2.21
-0.37,-0.17,2.04
-0.37,-0.17,2.04
-0.37,-0.17,2.04
-0.37,-0.17,2.04
-0.37,-0.17,2.04
-0.37,-0.17,2.04
-0.37,-0.17,2.04
-0.37,-0.17,2.04
-0.33,-0.17,1.85
-0.33,-0.17,1.85
-0.33,-0.17,1.85
-0.33,-0.17,1.85
-0.33,-0.17,1.85
-0.33,-0.17,1.85
-0.33,-0.17,1.85
-0.33,-0.17,1.85
-0.33,-0.17,1.65
-0.26,-0.17,1.65
-0.26,-0.17,1.65
-0.26,-0.17,1.65
-0.26,-0.17,1.65
-0.26,-0.17,1.65
-0.26,-0.17,1.65
-0.26,-0.17,1.65
-0.26,-0.17,1.65
-0.17,-0.15,1.49
-0.17,-0.15,1.49
-0.17,-0.15,1.49
-0.17,-0.15,1.49
-0.17,-0.15,1.49
-0.17,-0.15,1.49
-0.17,-0.15,1.49
-0.17,-0.15,1.49
-0.12,-0.20,1.40
-0.12,-0.20,1.40
-0.12,-0.20,1.40
-0.12,-0.20,1.40
-0.12,-0.20,1.40
-0.12,-0.20,1.40
-0.12,-0.20,1.40
-0.12,-0.20,1.40
-0.12,-0.20,1.15
-0.11,-0.15,1.13
-0.11,-0.15,1.13
-0.11,-0.15,1.13
-0.11,-0.15,1.13
-0.11,-0.15,1.13
-0.11,-0.15,1.13
-0.11,-0.15,1.13
-0.11,-0.15,1.13
-0.01,-0.18,1.02
-0.01,-0.18,1.02
-0.01,-0.18,1.02
-0.01,-0.18,1.02
-0.01,-0.18,1.02
-0.01,-0.18,1.02
-0.01,-0.18,1.02
-0.01,-0.18,1.02
0.05,-0.20,0.89
0.03,-0.20,0.89
0.03,-0.20,0.89
0.03,-0.20,0.89
0.03,-0.20,0.89
0.03,-0.20,0.89
0.03,-0.20,0.89
0.03,-0.20,0.89
0.03,-0.20,0.89
0.16,-0.17,0.77
0.16,-0.17,0.77
0.16,-0.17,0.77
0.16,-0.17,0.77
0.16,-0.17,0.77
0.16,-0.17,0.77
0.16,-0.17,0.77
0.16,-0.17,0.77
0.15,-0.16,0.63
0.15,-0.16,0.63
0.15,-0.16,0.63
0.15,-0.16,0.63
0.15,-0.16,0.63
0.15,-0.16,0.63
0.15,-0.16,0.63
0.15,-0.16,0.63
0.15,-0.14,0.47
0.16,-0.14,0.47
0.16,-0.14,0.47
0.16,-0.14,0.47
0.16,-0.14,0.47
0.16,-0.14,0.47
0.16,-0.14,0.47
0.16,-0.14,0.47
0.16,-0.14,0.47
0.18,-0.10,0.26
0.18,-0.10,0.26
0.18,-0.10,0.26
0.18,-0.10,0.26
0.18,-0.10,0.26
0.18,-0.10,0.26
0.18,-0.10,0.26
0.18,-0.10,0.26
0.21,-0.08,0.10
0.21,-0.08,0.10
0.21,-0.08,0.10
0.21,-0.08,0.10
0.21,-0.08,0.10
0.21,-0.08,0.10
0.21,-0.08,0.10
0.21,-0.08,0.10
0.21,-0.04,-0.01
0.26,-0.04,-0.01
0.26,-0.04,-0.01
0.26,-0.04,-0.01
0.26,-0.04,-0.01
0.26,-0.04,-0.01
0.26,-0.04,-0.01
0.26,-0.04,-0.01
0.26,-0.04,-0.01
0.30,-0.01,-0.10
0.30,-0.01,-0.10
0.30,-0.01,-0.10
0.30,-0.01,-0.10
0.30,-0.01,-0.10
0.30,-0.01,-0.10
0.30,-0.01,-0.10
0.30,-0.01,-0.10
0.30,0.08,-0.23
0.30,0.08,-0.23
0.30,0.08,-0.23
0.30,0.08,-0.23
0.30,0.08,-0.23
0.30,0.08,-0.23
0.30,0.08,-0.23
0.30,0.08,-0.23
0.30,0.02,-0.32
0.27,0.03,-0.32
0.27,0.03,-0.32
0.27,0.03,-0.32
0.27,0.03,-0.32
0.27,0.03,-0.32
0.27,0.03,-0.32
0.27,0.03,-0.32
0.27,0.03,-0.32
0.31,0.12,-0.40
0.31,0.12,-0.40
0.31,0.12,-0.40
0.31,0.12,-0.40
0.31,0.12,-0.40
0.31,0.12,-0.40
0.31,0.12,-0.40
0.31,0.12,-0.40
0.29,0.15,-0.47
0.29,0.15,-0.47
0.29,0.15,-0.47
0.29,0.15,-0.47
0.29,0.15,-0.47
0.29,0.15,-0.47
0.29,0.15,-0.47
0.29,0.15,-0.47
0.29,0.15,-0.55
0.25,0.16,-0.55
0.25,0.16,-0.55
0.25,0.16,-0.55
0.25,0.16,-0.55
0.25,0.16,-0.55
0.25,0.16,-0.55
0.25,0.16,-0.55
0.25,0.16,-0.55
0.24,0.18,-0.64
0.24,0.18,-0.64
0.24,0.18,-0.64
0.24,0.18,-0.64
0.24,0.18,-0.64
0.24,0.18,-0.64
0.24,0.18,-0.64
0.24,0.18,-0.64
0.31,0.22,-0.71
0.30,0.22,-0.71
0.30,0.22,-0.71
0.30,0.22,-0.71
0.30,0.22,-0.71
0.30,0.22,-0.71
0.30,0.22,-0.71
0.30,0.22,-0.71
0.30,0.22,-0.71
0.31,0.27,-0.81
0.31,0.27,-0.81
0.31,0.27,-0.81
0.31,0.27,-0.81
0.31,0.27,-0.81
0.31,0.27,-0.81
0.31,0.27,-0.81
0.31,0.27,-0.81
0.20,0.12,-0.84
0.20,0.12,-0.84
0.20,0.12,-0.84
0.20,0.12,-0.84
0.20,0.12,-0.84
0.20,0.12,-0.84
0.20,0.12,-0.84
0.20,0.12,-0.84
0.20,0.22,-0.88
0.22,0.22,-0.88
0.22,0.22,-0.88
0.22,0.22,-0.88
0.22,0.22,-0.88
0.22,0.22,-0.88
0.22,0.22,-0.88
0.22,0.22,-0.88
0.22,0.22,-0.88
0.18,0.19,-0.87
0.18,0.19,-0.87
0.18,0.19,-0.87
0.18,0.19,-0.87
0.18,0.19,-0.87
0.18,0.19,-0.87
0.18,0.19,-0.87
0.18,0.19,-0.87
0.10,0.16,-0.84
0.10,0.16,-0.84
0.10,0.16,-0.84
0.10,0.16,-0.84
0.10,0.16,-0.84
0.10,0.16,-0.84
0.10,0.16,-0.84
0.10,0.16,-0.84
0.10,0.13,-0.76
0.04,0.15,-0.76
0.04,0.15,-0.76
0.04,0.15,-0.76
0.04,0.15,-0.76
0.04,0.15,-0.76
0.04,0.15,-0.76
0.04,0.15,-0.76
0.04,0.15,-0.76
-0.02,0.15,-0.67
-0.02,0.15,-0.67
-0.02,0.15,-0.67
-0.02,0.15,-0.67
-0.02,0.15,-0.67
-0.02,0.15,-0.67
-0.02,0.15,-0.67
-0.02,0.15,-0.67
-0.08,0.13,-0.59
-0.08,0.13,-0.59
-0.08,0.13,-0.59
-0.08,0.13,-0.59
-0.08,0.13,-0.59
-0.08,0.13,-0.59
-0.08,0.13,-0.59
-0.08,0.13,-0.59
-0.08,0.06,-0.49
-0.11,0.09,-0.49
-0.11,0.09,-0.49
-0.11,0.09,-0.49
-0.11,0.09,-0.49
-0.11,0.09,-0.49
-0.11,0.09,-0.49
-0.11,0.09,-0.49
-0.11,0.09,-0.49
-0.15,0.04,-0.36
-0.15,0.04,-0.36
-0.15,0.04,-0.36
-0.15,0.04,-0.36
-0.15,0.04,-0.36
-0.15,0.04,-0.36
-0.15,0.04,-0.36
-0.15,0.04,-0.36
-0.14,0.03,-0.24
-0.14,0.03,-0.24
-0.14,0.03,-0.24
-0.14,0.03,-0.24
-0.14,0.03,-0.24
-0.14,0.03,-0.24
-0.14,0.03,-0.24
-0.14,0.03,-0.24
-0.14,0.03,-0.11
-0.12,0.00,-0.11
-0.12,0.00,-0.11
-0.12,0.00,-0.11
-0.12,0.00,-0.11
-0.12,0.00,-0.11
-0.12,0.00,-0.11
-0.12,0.00,-0.11
-0.12,0.00,-0.11
-0.10,-0.06,0.04
-0.10,-0.06,0.04
-0.10,-0.06,0.04
-0.10,-0.06,0.04
-0.10,-0.06,0.04
-0.10,-0.06,0.04
-0.10,-0.06,0.04
-0.10,-0.06,0.04
-0.04,-0.09,0.19
-0.06,-0.09,0.19
-0.06,-0.09,0.19
-0.06,-0.09,0.19
-0.06,-0.09,0.19
-0.06,-0.09,0.19
-0.06,-0.09,0.19
-0.06,-0.09,0.19
-0.06,-0.09,0.38
0.01,-0.13,0.40
0.01,-0.13,0.40
0.01,-0.13,0.40
0.01,-0.13,0.40
0.01,-0.13,0.40
0.01,-0.13,0.40
0.01,-0.13,0.40
0.01,-0.13,0.40
0.07,-0.17,0.63
0.07,-0.17,0.63
0.07,-0.17,0.63
0.07,-0.17,0.63
0.07,-0.17,0.63
0.07,-0.17,0.63
0.07,-0.17,0.63
0.07,-0.17,0.63
0.04,-0.23,0.88
0.04,-0.23,0.88
0.04,-0.23,0.88
0.04,-0.23,0.88
0.04,-0.23,0.88
0.04,-0.23,0.88
0.04,-0.23,0.88
0.04,-0.23,0.88
0.04,-0.23,0.88
0.02,-0.25,1.12
0.02,-0.25,1.12
0.02,-0.25,1.12
0.02,-0.25,1.12
0.02,-0.25,1.12
0.02,-0.25,1.12
0.02,-0.25,1.12
0.02,-0.25,1.12
-0.02,-0.26,1.42
-0.02,-0.26,1.42
-0.02,-0.26,1.42
-0.02,-0.26,1.42
-0.02,-0.26,1.42
-0.02,-0.26,1.42
-0.02,-0.26,1.42
-0.02,-0.26,1.42
-0.11,-0.29,1.72
-0.12,-0.29,1.72
-0.12,-0.29,1.72
-0.12,-0.29,1.72
-0.12,-0.29,1.72
-0.12,-0.29,1.72
-0.12,-0.29,1.72
-0.12,-0.29,1.72
-0.12,-0.29,1.72
-0.24,-0.29,1.96
-0.24,-0.29,1.96
-0.24,-0.29,1.96
-0.24,-0.29,1.96
-0.24,-0.29,1.96
-0.24,-0.29,1.96
-0.24,-0.29,1.96
-0.24,-0.29,1.96
-0.31,-0.29,2.19
-0.31,-0.29,2.19
-0.31,-0.29,2.19
-0.31,-0.29,2.19
-0.31,-0.29,2.19
-0.31,-0.29,2.19
-0.31,-0.29,2.19
-0.31,-0.29,2.19
-0.31,-0.31,2.48
-0.23,-0.31,2.48
-0.23,-0.31,2.48
-0.23,-0.31,2.48
-0.23,-0.31,2.48
-0.23,-0.31,2.48
-0.23,-0.31,2.48
-0.23,-0.31,2.48
-0.23,-0.31,2.48
-0.20,-0.30,2.75
-0.20,-0.30,2.75
-0.20,-0.30,2.75
-0.20,-0.30,2.75
-0.20,-0.30,2.75
-0.20,-0.30,2.75
-0.20,-0.30,2.75
-0.20,-0.30,2.75
-0.29,-0.23,2.86
-0.29,-0.23,2.86
-0.29,-0.23,2.86
-0.29,-0.23,2.86
-0.29,-0.23,2.86
-0.29,-0.23,2.86
-0.29,-0.23,2.86
-0.29,-0.23,2.86
-0.29,-0.14,3.01
-0.09,-0.13,3.01
-0.09,-0.13,3.01
-0.09,-0.13,3.01
-0.09,-0.13,3.01
-0.09,-0.13,3.01
-0.09,-0.13,3.01
-0.09,-0.13,3.01
-0.09,-0.13,3.01
-0.10,-0.13,3.23
-0.10,-0.13,3.23
-0.10,-0.13,3.23
-0.10,-0.13,3.23
-0.10,-0.13,3.23
-0.10,-0.13,3.23
-0.10,-0.13,3.23
-0.10,-0.13,3.23
-0.44,-0.18,3.32
-0.44,-0.18,3.32
-0.44,-0.18,3.32
-0.44,-0.18,3.32
-0.44,-0.18,3.32
-0.44,-0.18,3.32
-0.44,-0.18,3.32
-0.44,-0.18,3.32
-0.44,-0.18,3.42
-0.52,-0.13,3.42
-0.52,-0.13,3.42
-0.52,-0.13,3.42
-0.52,-0.13,3.42
-0.52,-0.13,3.42
-0.52,-0.13,3.42
-0.52,-0.13,3.42
-0.52,-0.13,3.42
-0.43,-0.09,3.48
-0.43,-0.09,3.48
-0.43,-0.09,3.48
-0.43,-0.09,3.48
-0.43,-0.09,3.48
-0.43,-0.09,3.48
-0.43,-0.09,3.48
-0.43,-0.09,3.48
-0.41,-0.11,3.51
-0.41,-0.11,3.51
-0.41,-0.11,3.51
-0.41,-0.11,3.51
-0.41,-0.11,3.51
-0.41,-0.11,3.51
-0.41,-0.11,3.51
-0.41,-0.11,3.51
-0.41,-0.11,3.39
-0.44,-0.17,3.41
-0.44,-0.17,3.41
-0.44,-0.17,3.41
-0.44,-0.17,3.41
-0.44,-0.17,3.41
-0.44,-0.17,3.41
-0.44,-0.17,3.41
-0.44,-0.17,3.41
-0.45,-0.17,3.23
-0.45,-0.17,3.23
-0.45,-0.17,3.23
-0.45,-0.17,3.23
-0.45,-0.17,3.23
-0.45,-0.17,3.23
-0.45,-0.17,3.23
-0.45,-0.17,3.23
-0.42,-0.15,3.07
-0.43,-0.15,3.07
-0.43,-0.15,3.07
-0.43,-0.15,3.07
-0.43,-0.15,3.07
-0.43,-0.15,3.07
-0.43,-0.15,3.07
-0.43,-0.15,3.07
-0.43,-0.15,2.91
-0.41,-0.16,2.91
-0.41,-0.16,2.91
-0.41,-0.16,2.91
-0.41,-0.16,2.91
-0.41,-0.16,2.91
-0.41,-0.16,2.91
-0.41,-0.16,2.91
-0.41,-0.16,2.91
-0.39,-0.16,2.69
-0.39,-0.16,2.69
-0.39,-0.16,2.69
-0.39,-0.16,2.69
-0.39,-0.16,2.69
-0.39,-0.16,2.69
-0.39,-0.16,2.69
-0.39,-0.16,2.69
-0.36,-0.16,2.38
-0.35,-0.16,2.38
-0.35,-0.16,2.38
-0.35,-0.16,2.38
-0.35,-0.16,2.38
-0.35,-0.16,2.38
-0.35,-0.16,2.38
-0.35,-0.16,2.38
-0.35,-0.16,2.38
-0.30,-0.18,2.08
-0.30,-0.18,2.08
-0.30,-0.18,2.08
-0.30,-0.18,2.08
-0.30,-0.18,2.08
-0.30,-0.18,2.08
-0.30,-0.18,2.08
-0.30,-0.18,2.08
-0.21,-0.13,1.87
-0.21,-0.13,1.87
-0.21,-0.13,1.87
-0.21,-0.13,1.87
-0.21,-0.13,1.87
-0.21,-0.13,1.87
-0.21,-0.13,1.87
-0.21,-0.13,1.87
-0.21,-0.13,1.72
-0.14,-0.13,1.72
-0.14,-0.13,1.72
-0.14,-0.13,1.72
-0.14,-0.13,1.72
-0.14,-0.13,1.72
-0.14,-0.13,1.72
-0.14,-0.13,1.72
-0.14,-0.13,1.72
-0.12,-0.17,1.59
-0.12,-0.17,1.59
-0.12,-0.17,1.59
-0.12,-0.17,1.59
-0.12,-0.17,1.59
-0.12,-0.17,1.59
-0.12,-0.17,1.59
-0.12,-0.17,1.59
-0.15,-0.08,1.31
-0.15,-0.08,1.31
-0.15,-0.08,1.31
-0.15,-0.08,1.31
-0.15,-0.08,1.31
-0.15,-0.08,1.31
-0.15,-0.08,1.31
-0.15,-0.08,1.31
-0.15,-0.11,1.16
-0.15,-0.12,1.16
-0.15,-0.12,1.16
-0.15,-0.12,1.16
-0.15,-0.12,1.16
-0.15,-0.12,1.16
-0.15,-0.12,1.16
-0.15,-0.12,1.16
-0.15,-0.12,1.16
-0.13,-0.14,1.06
-0.13,-0.14,1.06
-0.13,-0.14,1.06
-0.13,-0.14,1.06
-0.13,-0.14,1.06
-0.13,-0.14,1.06
-0.13,-0.14,1.06
-0.13,-0.14,1.06
-0.04,-0.07,0.90
-0.04,-0.07,0.90
-0.04,-0.07,0.90
-0.04,-0.07,0.90
-0.04,-0.07,0.90
-0.04,-0.07,0.90
-0.04,-0.07,0.90
-0.04,-0.07,0.90
-0.04,-0.11,0.74
-0.11,-0.10,0.74
-0.11,-0.10,0.74
-0.11,-0.10,0.74
-0.11,-0.10,0.74
-0.11,-0.10,0.74
-0.11,-0.10,0.74
-0.11,-0.10,0.74
-0.11,-0.10,0.74
-0.01,-0.14,0.62
-0.01,-0.14,0.62
-0.01,-0.14,0.62
-0.01,-0.14,0.62
-0.01,-0.14,0.62
-0.01,-0.14,0.62
-0.01,-0.14,0.62
-0.01,-0.14,0.62
0.10,-0.07,0.49
0.10,-0.07,0.49
0.10,-0.07,0.49
0.10,-0.07,0.49
0.10,-0.07,0.49
0.10,-0.07,0.49
0.10,-0.07,0.49
0.10,-0.07,0.49
0.10,-0.07,0.41
0.13,-0.08,0.41
0.13,-0.08,0.41
0.13,-0.08,0.41
0.13,-0.08,0.41
0.13,-0.08,0.41
0.13,-0.08,0.41
0.13,-0.08,0.41
0.13,-0.08,0.41
0.14,-0.08,0.30
0.14,-0.08,0.30
0.14,-0.08,0.30
0.14,-0.08,0.30
0.14,-0.08,0.30
0.14,-0.08,0.30
0.14,-0.08,0.30
0.14,-0.08,0.30
0.14,-0.07,0.16
0.15,-0.07,0.16
0.15,-0.07,0.16
0.15,-0.07,0.16
0.15,-0.07,0.16
0.15,-0.07,0.16
0.15,-0.07,0.16
0.15,-0.07,0.16
0.15,-0.07,0.03
0.17,-0.03,0.06
0.17,-0.03,0.06
0.17,-0.03,0.06
0.17,-0.03,0.06
0.17,-0.03,0.06
0.17,-0.03,0.06
0.17,-0.03,0.06
0.17,-0.03,0.06
0.18,-0.01,-0.03
0.18,-0.01,-0.03
0.18,-0.01,-0.03
0.18,-0.01,-0.03
0.18,-0.01,-0.03
0.18,-0.01,-0.03
0.18,-0.01,-0.03
0.18,-0.01,-0.03
0.18,0.01,-0.12
0.20,0.01,-0.12
0.20,0.01,-0.12
0.20,0.01,-0.12
0.20,0.01,-0.12
0.20,0.01,-0.12
0.20,0.01,-0.12
0.20,0.01,-0.12
0.20,0.01,-0.12
0.22,0.03,-0.24
0.22,0.03,-0.24
0.22,0.03,-0.24
0.22,0.03,-0.24
0.22,0.03,-0.24
0.22,0.03,-0.24
0.22,0.03,-0.24
0.22,0.03,-0.24
0.24,0.06,-0.35
0.24,0.06,-0.35
0.24,0.06,-0.35
0.24,0.06,-0.35
0.24,0.06,-0.35
0.24,0.06,-0.35
0.24,0.06,-0.35
0.24,0.06,-0.35
0.24,0.09,-0.45
0.27,0.08,-0.45
0.27,0.08,-0.45
0.27,0.08,-0.45
0.27,0.08,-0.45
0.27,0.08,-0.45
0.27,0.08,-0.45
0.27,0.08,-0.45
0.27,0.08,-0.45
0.31,0.11,-0.52
0.31,0.11,-0.52
0.31,0.11,-0.52
0.31,0.11,-0.52
0.31,0.11,-0.52
0.31,0.11,-0.52
0.31,0.11,-0.52
0.31,0.11,-0.52
0.34,0.10,-0.57
0.34,0.10,-0.57
0.34,0.10,-0.57
0.34,0.10,-0.57
0.34,0.10,-0.57
0.34,0.10,-0.57
0.34,0.10,-0.57
0.34,0.10,-0.57
0.34,0.13,-0.61
0.37,0.13,-0.61
0.37,0.13,-0.61
0.37,0.13,-0.61
0.37,0.13,-0.61
0.37,0.13,-0.61
0.37,0.13,-0.61
0.37,0.13,-0.61
0.37,0.13,-0.61
0.29,0.01,-0.63
0.29,0.01,-0.63
0.29,0.01,-0.63
0.29,0.01,-0.63
0.29,0.01,-0.63
0.29,0.01,-0.63
0.29,0.01,-0.63
0.29,0.01,-0.63
0.30,0.11,-0.70
0.30,0.11,-0.70
0.30,0.11,-0.70
0.30,0.11,-0.70
0.30,0.11,-0.70
0.30,0.11,-0.70
0.30,0.11,-0.70
0.30,0.11,-0.70
0.30,0.11,-0.71
0.30,0.10,-0.71
0.30,0.10,-0.71
0.30,0.10,-0.71
0.30,0.10,-0.71
0.30,0.10,-0.71
0.30,0.10,-0.71
0.30,0.10,-0.71
0.30,0.10,-0.71
0.14,0.04,-0.69
0.14,0.04,-0.69
0.14,0.04,-0.69
0.14,0.04,-0.69
0.14,0.04,-0.69
0.14,0.04,-0.69
0.14,0.04,-0.69
0.14,0.04,-0.69
0.06,0.07,-0.73
0.06,0.07,-0.73
0.06,0.07,-0.73
0.06,0.07,-0.73
0.06,0.07,-0.73
0.06,0.07,-0.73
0.06,0.07,-0.73
0.06,0.07,-0.73
0.06,0.07,-0.73
0.05,0.07,-0.74
0.05,0.07,-0.74
0.05,0.07,-0.74
0.05,0.07,-0.74
0.05,0.07,-0.74
0.05,0.07,-0.74
0.05,0.07,-0.74
0.05,0.07,-0.74
-0.01,0.05,-0.69
-0.01,0.05,-0.69
-0.01,0.05,-0.69
-0.01,0.05,-0.69
-0.01,0.05,-0.69
-0.01,0.05,-0.69
-0.01,0.05,-0.69
-0.01,0.05,-0.69
-0.07,0.04,-0.60
-0.07,0.04,-0.60
-0.07,0.04,-0.60
-0.07,0.04,-0.60
-0.07,0.04,-0.60
-0.07,0.04,-0.60
-0.07,0.04,-0.60
-0.07,0.04,-0.60
-0.07,0.04,-0.60
-0.12,0.01,-0.51
-0.12,0.01,-0.51
-0.12,0.01,-0.51
-0.12,0.01,-0.51
-0.12,0.01,-0.51
-0.12,0.01,-0.51
-0.12,0.01,-0.51
-0.12,0.01,-0.51
-0.10,-0.01,-0.41
-0.10,-0.01,-0.41
-0.10,-0.01,-0.41
-0.10,-0.01,-0.41
-0.10,-0.01,-0.41
-0.10,-0.01,-0.41
-0.10,-0.01,-0.41
-0.10,-0.01,-0.41
-0.10,-0.05,-0.24
-0.04,-0.05,-0.24
-0.04,-0.05,-0.24
-0.04,-0.05,-0.24
-0.04,-0.05,-0.24
-0.04,-0.05,-0.24
-0.04,-0.05,-0.24
-0.04,-0.05,-0.24
-0.04,-0.05,-0.24
-0.01,-0.09,-0.04
-0.01,-0.09,-0.04
-0.01,-0.09,-0.04
-0.01,-0.09,-0.04
-0.01,-0.09,-0.04
-0.01,-0.09,-0.04
-0.01,-0.09,-0.04
-0.01,-0.09,-0.04
-0.04,-0.14,0.11
-0.04,-0.14,0.11
-0.04,-0.14,0.11
-0.04,-0.14,0.11
-0.04,-0.14,0.11
-0.04,-0.14,0.11
-0.04,-0.14,0.11
-0.04,-0.14,0.11
-0.04,-0.16,0.26
-0.07,-0.16,0.26
-0.07,-0.16,0.26
-0.07,-0.16,0.26
-0.07,-0.16,0.26
-0.07,-0.16,0.26
-0.07,-0.16,0.26
-0.07,-0.16,0.26
-0.07,-0.16,0.26
-0.10,-0.18,0.46
-0.10,-0.18,0.46
-0.10,-0.18,0.46
-0.10,-0.18,0.46
-0.10,-0.18,0.46
-0.10,-0.18,0.46
-0.10,-0.18,0.46
-0.10,-0.18,0.46
-0.14,-0.21,0.69
-0.14,-0.21,0.69
-0.14,-0.21,0.69
-0.14,-0.21,0.69
-0.14,-0.21,0.69
-0.14,-0.21,0.69
-0.14,-0.21,0.69
-0.14,-0.21,0.69
-0.14,-0.28,0.90
-0.26,-0.26,0.90
-0.26,-0.26,0.90
-0.26,-0.26,0.90
-0.26,-0.26,0.90
-0.26,-0.26,0.90
-0.26,-0.26,0.90
-0.26,-0.26,0.90
-0.26,-0.26,0.90
-0.33,-0.34,1.17
-0.33,-0.34,1.17
-0.33,-0.34,1.17
-0.33,-0.34,1.17
-0.33,-0.34,1.17
-0.33,-0.34,1.17
-0.33,-0.34,1.17
-0.33,-0.34,1.17
-0.39,-0.39,1.47
-0.39,-0.39,1.47
-0.39,-0.39,1.47
-0.39,-0.39,1.47
-0.39,-0.39,1.47
-0.39,-0.39,1.47
-0.39,-0.39,1.47
-0.39,-0.39,1.47
-0.39,-0.39,1.78
-0.46,-0.39,1.78
-0.46,-0.39,1.78
-0.46,-0.39,1.78
-0.46,-0.39,1.78
-0.46,-0.39,1.78
-0.46,-0.39,1.78
-0.46,-0.39,1.78
-0.46,-0.39,1.78
-0.49,-0.36,2.11
-0.49,-0.36,2.11
-0.49,-0.36,2.11
-0.49,-0.36,2.11
-0.49,-0.36,2.11
-0.49,-0.36,2.11
-0.49,-0.36,2.11
-0.49,-0.36,2.11
-0.49,-0.29,2.45
-0.48,-0.29,2.45
-0.48,-0.29,2.45
-0.48,-0.29,2.45
-0.48,-0.29,2.45
-0.48,-0.29,2.45
-0.48,-0.29,2.45
-0.48,-0.29,2.45
-0.48,-0.29,2.49
-0.54,-0.13,2.49
-0.54,-0.13,2.49
-0.54,-0.13,2.49
-0.54,-0.13,2.49
-0.54,-0.13,2.49
-0.54,-0.13,2.49
-0.54,-0.13,2.49
-0.54,-0.13,2.49
-0.43,-0.24,2.88
-0.43,-0.24,2.88
-0.43,-0.24,2.88
-0.43,-0.24,2.88
-0.43,-0.24,2.88
-0.43,-0.24,2.88
-0.43,-0.24,2.88
-0.43,-0.24,2.88
-0.28,-0.00,3.09
-0.25,-0.00,3.09
-0.25,-0.00,3.09
-0.25,-0.00,3.09
-0.25,-0.00,3.09
-0.25,-0.00,3.09
-0.25,-0.00,3.09
-0.25,-0.00,3.09
-0.25,-0.00,3.09
-0.08,-0.21,3.23
-0.08,-0.21,3.23
-0.08,-0.21,3.23
-0.08,-0.21,3.23
-0.08,-0.21,3.23
-0.08,-0.21,3.23
-0.08,-0.21,3.23
-0.08,-0.21,3.23
-0.12,-0.17,3.27
-0.12,-0.17,3.27
-0.12,-0.17,3.27
-0.12,-0.17,3.27
-0.12,-0.17,3.27
-0.12,-0.17,3.27
-0.12,-0.17,3.27
-0.12,-0.17,3.27
-0.12,-0.20,3.31
-0.12,-0.20,3.31
-0.12,-0.20,3.31
-0.12,-0.20,3.31
-0.12,-0.20,3.31
-0.12,-0.20,3.31
-0.12,-0.20,3.31
-0.12,-0.20,3.31
-0.12,-0.20,3.31
0.01,-0.18,3.34
0.01,-0.18,3.34
0.01,-0.18,3.34
0.01,-0.18,3.34
0.01,-0.18,3.34
0.01,-0.18,3.34
0.01,-0.18,3.34
0.01,-0.18,3.34
0.06,-0.19,3.30
0.06,-0.19,3.30
0.06,-0.19,3.30
0.06,-0.19,3.30
0.06,-0.19,3.30
0.06,-0.19,3.30
0.06,-0.19,3.30
0.06,-0.19,3.30
0.06,-0.21,3.25
0.03,-0.21,3.25
0.03,-0.21,3.25
0.03,-0.21,3.25
0.03,-0.21,3.25
0.03,-0.21,3.25
0.03,-0.21,3.25
0.03,-0.21,3.25
0.03,-0.21,3.25
-0.01,-0.20,3.19
-0.01,-0.20,3.19
-0.01,-0.20,3.19
-0.01,-0.20,3.19
-0.01,-0.20,3.19
-0.01,-0.20,3.19
-0.01,-0.20,3.19
-0.01,-0.20,3.19
-0.13,-0.15,3.05
-0.13,-0.15,3.05
-0.13,-0.15,3.05
-0.13,-0.15,3.05
-0.13,-0.15,3.05
-0.13,-0.15,3.05
-0.13,-0.15,3.05
-0.13,-0.15,3.05
-0.13,-0.15,2.92
-0.21,-0.19,2.92
-0.21,-0.19,2.92
-0.21,-0.19,2.92
-0.21,-0.19,2.92
-0.21,-0.19,2.92
-0.21,-0.19,2.92
-0.21,-0.19,2.92
-0.21,-0.19,2.92
-0.29,-0.16,2.73
-0.29,-0.16,2.73
-0.29,-0.16,2.73
-0.29,-0.16,2.73
-0.29,-0.16,2.73
-0.29,-0.16,2.73
-0.29,-0.16,2.73
-0.29,-0.16,2.73
-0.29,-0.18,2.55
-0.30,-0.18,2.55
-0.30,-0.18,2.55
-0.30,-0.18,2.55
-0.30,-0.18,2.55
-0.30,-0.18,2.55
-0.30,-0.18,2.55
-0.30,-0.18,2.55
-0.30,-0.18,2.37
-0.29,-0.17,2.36
-0.29,-0.17,2.36
-0.29,-0.17,2.36
-0.29,-0.17,2.36
-0.29,-0.17,2.36
-0.29,-0.17,2.36
-0.29,-0.17,2.36
-0.29,-0.17,2.36
-0.33,-0.16,2.15
-0.33,-0.16,2.15
-0.33,-0.16,2.15
-0.33,-0.16,2.15
-0.33,-0.16,2.15
-0.33,-0.16,2.15
-0.33,-0.16,2.15
-0.33,-0.16,2.15
-0.36,-0.17,1.93
-0.36,-0.17,1.93
-0.36,-0.17,1.93
-0.36,-0.17,1.93
-0.36,-0.17,1.93
-0.36,-0.17,1.93
-0.36,-0.17,1.93
-0.36,-0.17,1.93
-0.36,-0.17,1.93
-0.35,-0.14,1.73
-0.35,-0.14,1.73
-0.35,-0.14,1.73
-0.35,-0.14,1.73
-0.35,-0.14,1.73
-0.35,-0.14,1.73
-0.35,-0.14,1.73
-0.35,-0.14,1.73
-0.31,-0.13,1.60
-0.31,-0.13,1.60
-0.31,-0.13,1.60
-0.31,-0.13,1.60
-0.31,-0.13,1.60
-0.31,-0.13,1.60
-0.31,-0.13,1.60
-0.31,-0.13,1.60
-0.31,-0.16,1.52
-0.31,-0.16,1.52
-0.31,-0.16,1.52
-0.31,-0.16,1.52
-0.31,-0.16,1.52
-0.31,-0.16,1.52
-0.31,-0.16,1.52
-0.31,-0.16,1.52
-0.31,-0.16,1.52
-0.32,-0.24,1.46
-0.32,-0.24,1.46
-0.32,-0.24,1.46
-0.32,-0.24,1.46
-0.32,-0.24,1.46
-0.32,-0.24,1.46
-0.32,-0.24,1.46
-0.32,-0.24,1.46
-0.19,-0.21,1.29
-0.19,-0.21,1.29
-0.19,-0.21,1.29
-0.19,-0.21,1.29
-0.19,-0.21,1.29
-0.19,-0.21,1.29
-0.19,-0.21,1.29
-0.19,-0.21,1.29
-0.19,-0.18,1.15
-0.21,-0.16,1.15
-0.21,-0.16,1.15
-0.21,-0.16,1.15
-0.21,-0.16,1.15
-0.21,-0.16,1.15
-0.21,-0.16,1.15
-0.21,-0.16,1.15
-0.21,-0.16,1.15
-0.20,-0.17,0.99
-0.20,-0.17,0.99
-0.20,-0.17,0.99
-0.20,-0.17,0.99
-0.20,-0.17,0.99
-0.20,-0.17,0.99
-0.20,-0.17,0.99
-0.20,-0.17,0.99
-0.18,-0.15,0.90
-0.18,-0.15,0.90
-0.18,-0.15,0.90
-0.18,-0.15,0.90
-0.18,-0.15,0.90
-0.18,-0.15,0.90
-0.18,-0.15,0.90
-0.18,-0.15,0.90
-0.18,-0.15,0.78
-0.20,-0.19,0.78
-0.20,-0.19,0.78
-0.20,-0.19,0.78
-0.20,-0.19,0.78
-0.20,-0.19,0.78
-0.20,-0.19,0.78
-0.20,-0.19,0.78
-0.20,-0.19,0.78
-0.07,-0.15,0.63
-0.07,-0.15,0.63
-0.07,-0.15,0.63
-0.07,-0.15,0.63
-0.07,-0.15,0.63
-0.07,-0.15,0.63
-0.07,-0.15,0.63
-0.07,-0.15,0.63
-0.01,-0.12,0.45
-0.03,-0.12,0.45
-0.03,-0.12,0.45
-0.03,-0.12,0.45
-0.03,-0.12,0.45
-0.03,-0.12,0.45
-0.03,-0.12,0.45
-0.03,-0.12,0.45
-0.03,-0.12,0.30
-0.01,-0.12,0.30
-0.01,-0.12,0.30
-0.01,-0.12,0.30
-0.01,-0.12,0.30
-0.01,-0.12,0.30
-0.01,-0.12,0.30
-0.01,-0.12,0.30
-0.01,-0.12,0.30
0.01,-0.08,0.16
0.01,-0.08,0.16
0.01,-0.08,0.16
0.01,-0.08,0.16
0.01,-0.08,0.16
0.01,-0.08,0.16
0.01,-0.08,0.16
0.01,-0.08,0.16
0.04,-0.03,0.07
0.03,-0.03,0.07
0.03,-0.03,0.07
0.03,-0.03,0.07
0.03,-0.03,0.07
0.03,-0.03,0.07
0.03,-0.03,0.07
0.03,-0.03,0.07
0.03,-0.03,0.07
0.04,0.00,-0.02
0.04,0.00,-0.02
0.04,0.00,-0.02
0.04,0.00,-0.02
0.04,0.00,-0.02
0.04,0.00,-0.02
0.04,0.00,-0.02
0.04,0.00,-0.02
0.04,0.02,-0.14
0.04,0.02,-0.14
0.04,0.02,-0.14
0.04,0.02,-0.14
0.04,0.02,-0.14
0.04,0.02,-0.14
0.04,0.02,-0.14
0.04,0.02,-0.14
0.11,0.06,-0.27
0.09,0.06,-0.27
0.09,0.06,-0.27
0.09,0.06,-0.27
0.09,0.06,-0.27
0.09,0.06,-0.27
0.09,0.06,-0.27
0.09,0.06,-0.27
0.09,0.06,-0.27
0.12,0.07,-0.33
0.12,0.07,-0.33
0.12,0.07,-0.33
0.12,0.07,-0.33
0.12,0.07,-0.33
0.12,0.07,-0.33
0.12,0.07,-0.33
0.12,0.07,-0.33
0.14,0.11,-0.36
0.14,0.11,-0.36
0.14,0.11,-0.36
0.14,0.11,-0.36
0.14,0.11,-0.36
0.14,0.11,-0.36
0.14,0.11,-0.36
0.14,0.11,-0.36
0.14,0.14,-0.40
0.16,0.14,-0.40
0.16,0.14,-0.40
0.16,0.14,-0.40
0.16,0.14,-0.40
0.16,0.14,-0.40
0.16,0.14,-0.40
0.16,0.14,-0.40
0.16,0.14,-0.40
0.18,0.15,-0.43
0.18,0.15,-0.43
0.18,0.15,-0.43
0.18,0.15,-0.43
0.18,0.15,-0.43
0.18,0.15,-0.43
0.18,0.15,-0.43
0.18,0.15,-0.43
0.20,0.12,-0.46
0.20,0.12,-0.46
0.20,0.12,-0.46
0.20,0.12,-0.46
0.20,0.12,-0.46
0.20,0.12,-0.46
0.20,0.12,-0.46
0.20,0.12,-0.46
0.20,0.12,-0.52
0.24,0.14,-0.52
0.24,0.14,-0.52
0.24,0.14,-0.52
0.24,0.14,-0.52
0.24,0.14,-0.52
0.24,0.14,-0.52
0.24,0.14,-0.52
0.24,0.14,-0.52
0.19,0.00,-0.55
0.19,0.00,-0.55
0.19,0.00,-0.55
0.19,0.00,-0.55
0.19,0.00,-0.55
0.19,0.00,-0.55
0.19,0.00,-0.55
0.19,0.00,-0.55
0.28,0.08,-0.62
0.28,0.08,-0.62
0.28,0.08,-0.62
0.28,0.08,-0.62
0.28,0.08,-0.62
0.28,0.08,-0.62
0.28,0.08,-0.62
0.28,0.08,-0.62
0.28,0.08,-0.65
0.40,0.16,-0.63
0.40,0.16,-0.63
0.40,0.16,-0.63
0.40,0.16,-0.63
0.40,0.16,-0.63
0.40,0.16,-0.63
0.40,0.16,-0.63
0.40,0.16,-0.63
0.31,0.09,-0.65
0.31,0.09,-0.65
0.31,0.09,-0.65
0.31,0.09,-0.65
0.31,0.09,-0.65
0.31,0.09,-0.65
0.31,0.09,-0.65
0.31,0.09,-0.65
0.25,0.09,-0.69
0.24,0.09,-0.69
0.24,0.09,-0.69
0.24,0.09,-0.69
0.24,0.09,-0.69
0.24,0.09,-0.69
0.24,0.09,-0.69
0.24,0.09,-0.69
0.24,0.09,-0.69
0.20,0.07,-0.67
0.20,0.07,-0.67
0.20,0.07,-0.67
0.20,0.07,-0.67
0.20,0.07,-0.67
0.20,0.07,-0.67
0.20,0.07,-0.67
0.20,0.07,-0.67
0.20,0.12,-0.61
0.20,0.12,-0.61
0.20,0.12,-0.61
0.20,0.12,-0.61
0.20,0.12,-0.61
0.20,0.12,-0.61
0.20,0.12,-0.61
0.20,0.12,-0.61
0.20,0.11,-0.50
0.19,0.11,-0.50
0.19,0.11,-0.50
0.19,0.11,-0.50
0.19,0.11,-0.50
0.19,0.11,-0.50
0.19,0.11,-0.50
0.19,0.11,-0.50
0.19,0.11,-0.50
0.15,0.05,-0.41
0.15,0.05,-0.41
0.15,0.05,-0.41
0.15,0.05,-0.41
0.15,0.05,-0.41
0.15,0.05,-0.41
0.15,0.05,-0.41
0.15,0.05,-0.41
0.13,0.03,-0.32
0.13,0.03,-0.32
0.13,0.03,-0.32
0.13,0.03,-0.32
0.13,0.03,-0.32
0.13,0.03,-0.32
0.13,0.03,-0.32
0.13,0.03,-0.32
0.13,-0.00,-0.19
0.11,-0.00,-0.19
0.11,-0.00,-0.19
0.11,-0.00,-0.19
0.11,-0.00,-0.19
0.11,-0.00,-0.19
0.11,-0.00,-0.19
0.11,-0.00,-0.19
0.11,-0.00,-0.19
0.11,-0.02,-0.06
0.11,-0.02,-0.06
0.11,-0.02,-0.06
0.11,-0.02,-0.06
0.11,-0.02,-0.06
0.11,-0.02,-0.06
0.11,-0.02,-0.06
0.11,-0.02,-0.06
0.08,-0.07,0.06
0.08,-0.07,0.06
0.08,-0.07,0.06
0.08,-0.07,0.06
0.08,-0.07,0.06
0.08,-0.07,0.06
0.08,-0.07,0.06
0.08,-0.07,0.06
0.08,-0.07,0.19
0.06,-0.10,0.19
0.06,-0.10,0.19
0.06,-0.10,0.19
0.06,-0.10,0.19
0.06,-0.10,0.19
0.06,-0.10,0.19
0.06,-0.10,0.19
0.06,-0.10,0.19
0.02,-0.12,0.36
0.02,-0.12,0.36
0.02,-0.12,0.36
0.02,-0.12,0.36
0.02,-0.12,0.36
0.02,-0.12,0.36
0.02,-0.12,0.36
0.02,-0.12,0.36
-0.04,-0.19,0.60
-0.04,-0.19,0.60
-0.04,-0.19,0.60
-0.04,-0.19,0.60
-0.04,-0.19,0.60
-0.04,-0.19,0.60
-0.04,-0.19,0.60
-0.04,-0.19,0.60
-0.04,-0.19,0.79
-0.10,-0.23,0.79
-0.10,-0.23,0.79
-0.10,-0.23,0.79
-0.10,-0.23,0.79
-0.10,-0.23,0.79
-0.10,-0.23,0.79
-0.10,-0.23,0.79
-0.10,-0.23,0.79
-0.14,-0.24,0.95
-0.14,-0.24,0.95
-0.14,-0.24,0.95
-0.14,-0.24,0.95
-0.14,-0.24,0.95
-0.14,-0.24,0.95
-0.14,-0.24,0.95
-0.14,-0.24,0.95
-0.24,-0.27,1.14
-0.22,-0.27,1.14
-0.22,-0.27,1.14
-0.22,-0.27,1.14
-0.22,-0.27,1.14
-0.22,-0.27,1.14
-0.22,-0.27,1.14
-0.22,-0.27,1.14
-0.22,-0.27,1.14
-0.31,-0.27,1.31
-0.31,-0.27,1.31
-0.31,-0.27,1.31
-0.31,-0.27,1.31
-0.31,-0.27,1.31
-0.31,-0.27,1.31
-0.31,-0.27,1.31
-0.31,-0.27,1.31
-0.36,-0.22,1.47
-0.36,-0.22,1.47
-0.36,-0.22,1.47
-0.36,-0.22,1.47
-0.36,-0.22,1.47
-0.36,-0.22,1.47
-0.36,-0.22,1.47
-0.36,-0.22,1.47
-0.42,-0.23,1.67
-0.41,-0.23,1.67
-0.41,-0.23,1.67
-0.41,-0.23,1.67
-0.41,-0.23,1.67
-0.41,-0.23,1.67
-0.41,-0.23,1.67
-0.41,-0.23,1.67
-0.41,-0.23,1.67
-0.43,-0.19,1.84
-0.43,-0.19,1.84
-0.43,-0.19,1.84
-0.43,-0.19,1.84
-0.43,-0.19,1.84
-0.43,-0.19,1.84
-0.43,-0.19,1.84
-0.43,-0.19,1.84
-0.43,-0.18,2.03
-0.43,-0.18,2.03
-0.43,-0.18,2.03
-0.43,-0.18,2.03
-0.43,-0.18,2.03
-0.43,-0.18,2.03
-0.43,-0.18,2.03
-0.43,-0.18,2.03
-0.43,-0.12,2.18
-0.44,-0.12,2.18
-0.44,-0.12,2.18
-0.44,-0.12,2.18
-0.44,-0.12,2.18
-0.44,-0.12,2.18
-0.44,-0.12,2.18
-0.44,-0.12,2.18
-0.44,-0.12,2.18
-0.30,-0.05,2.41
-0.30,-0.05,2.41
-0.30,-0.05,2.41
-0.30,-0.05,2.41
-0.30,-0.05,2.41
-0.30,-0.05,2.41
-0.30,-0.05,2.41
-0.30,-0.05,2.41
-0.09,-0.06,2.64
-0.09,-0.06,2.64
-0.09,-0.06,2.64
-0.09,-0.06,2.64
-0.09,-0.06,2.64
-0.09,-0.06,2.64
-0.09,-0.06,2.64
-0.09,-0.06,2.64
-0.09,-0.09,2.88
-0.01,-0.10,2.88
-0.01,-0.10,2.88
-0.01,-0.10,2.88
-0.01,-0.10,2.88
-0.01,-0.10,2.88
-0.01,-0.10,2.88
-0.01,-0.10,2.88
-0.01,-0.10,2.88
-0.05,-0.16,3.11
-0.05,-0.16,3.11
-0.05,-0.16,3.11
-0.05,-0.16,3.11
-0.05,-0.16,3.11
-0.05,-0.16,3.11
-0.05,-0.16,3.11
-0.05,-0.16,3.11
-0.04,-0.10,3.23
-0.04,-0.10,3.23
-0.04,-0.10,3.23
-0.04,-0.10,3.23
-0.04,-0.10,3.23
-0.04,-0.10,3.23
-0.04,-0.10,3.23
-0.04,-0.10,3.23
-0.04,-0.10,3.23
0.02,0.09,3.24
0.02,0.09,3.24
0.02,0.09,3.24
0.02,0.09,3.24
0.02,0.09,3.24
0.02,0.09,3.24
0.02,0.09,3.24
0.02,0.09,3.24
-0.23,-0.07,3.31
-0.23,-0.07,3.31
-0.23,-0.07,3.31
-0.23,-0.07,3.31
-0.23,-0.07,3.31
-0.23,-0.07,3.31
-0.23,-0.07,3.31
-0.23,-0.07,3.31
-0.20,-0.04,3.28
-0.20,-0.04,3.28
-0.20,-0.04,3.28
-0.20,-0.04,3.28
-0.20,-0.04,3.28
-0.20,-0.04,3.28
-0.20,-0.04,3.28
-0.20,-0.04,3.28
-0.20,-0.04,3.28
-0.18,0.02,3.21
-0.18,0.02,3.21
-0.18,0.02,3.21
-0.18,0.02,3.21
-0.18,0.02,3.21
-0.18,0.02,3.21
-0.18,0.02,3.21
-0.18,0.02,3.21
-0.29,-0.00,3.08
-0.29,-0.00,3.08
-0.29,-0.00,3.08
-0.29,-0.00,3.08
-0.29,-0.00,3.08
-0.29,-0.00,3.08
-0.29,-0.00,3.08
-0.29,-0.00,3.08
-0.41,-0.04,2.87
-0.43,-0.04,2.87
-0.43,-0.04,2.87
-0.43,-0.04,2.87
-0.43,-0.04,2.87
-0.43,-0.04,2.87
-0.43,-0.04,2.87
-0.43,-0.04,2.87
-0.43,-0.04,2.87
-0.46,-0.05,2.69
-0.46,-0.05,2.69
-0.46,-0.05,2.69
-0.46,-0.05,2.69
-0.46,-0.05,2.69
-0.46,-0.05,2.69
-0.46,-0.05,2.69
-0.46,-0.05,2.69
-0.38,-0.04,2.57
-0.38,-0.04,2.57
-0.38,-0.04,2.57
-0.38,-0.04,2.57
-0.38,-0.04,2.57
-0.38,-0.04,2.57
-0.38,-0.04,2.57
-0.38,-0.04,2.57
-0.38,-0.07,2.44
-0.28,-0.07,2.44
-0.28,-0.07,2.44
-0.28,-0.07,2.44
-0.28,-0.07,2.44
-0.28,-0.07,2.44
-0.28,-0.07,2.44
-0.28,-0.07,2.44
-0.28,-0.07,2.44
-0.28,-0.12,2.26
-0.28,-0.12,2.26
-0.28,-0.12,2.26
-0.28,-0.12,2.26
-0.28,-0.12,2.26
-0.28,-0.12,2.26
-0.28,-0.12,2.26
-0.28,-0.12,2.26
-0.27,-0.10,2.06
-0.27,-0.10,2.06
-0.27,-0.10,2.06
-0.27,-0.10,2.06
-0.27,-0.10,2.06
-0.27,-0.10,2.06
-0.27,-0.10,2.06
-0.27,-0.10,2.06
-0.27,-0.10,1.89
-0.29,-0.11,1.89
-0.29,-0.11,1.89
-0.29,-0.11,1.89
-0.29,-0.11,1.89
-0.29,-0.11,1.89
-0.29,-0.11,1.89
-0.29,-0.11,1.89
-0.29,-0.11,1.89
-0.31,-0.12,1.75
-0.31,-0.12,1.75
-0.31,-0.12,1.75
-0.31,-0.12,1.75
-0.31,-0.12,1.75
-0.31,-0.12,1.75
-0.31,-0.12,1.75
-0.31,-0.12,1.75
-0.30,-0.16,1.65
-0.30,-0.16,1.65
-0.30,-0.16,1.65
-0.30,-0.16,1.65
-0.30,-0.16,1.65
-0.30,-0.16,1.65
-0.30,-0.16,1.65
-0.30,-0.16,1.65
-0.30,-0.16,1.38
-0.23,-0.04,1.38
-0.23,-0.04,1.38
-0.23,-0.04,1.38
-0.23,-0.04,1.38
-0.23,-0.04,1.38
-0.23,-0.04,1.38
-0.23,-0.04,1.38
-0.23,-0.04,1.38
-0.15,-0.25,1.38
-0.15,-0.25,1.38
-0.15,-0.25,1.38
-0.15,-0.25,1.38
-0.15,-0.25,1.38
-0.15,-0.25,1.38
-0.15,-0.25,1.38
-0.15,-0.25,1.38
-0.12,-0.16,1.24
-0.12,-0.16,1.24
-0.12,-0.16,1.24
-0.12,-0.16,1.24
-0.12,-0.16,1.24
-0.12,-0.16,1.24
-0.12,-0.16,1.24
-0.12,-0.16,1.24
-0.12,-0.16,1.12
0.03,-0.14,1.12
0.03,-0.14,1.12
0.03,-0.14,1.12
0.03,-0.14,1.12
0.03,-0.14,1.12
0.03,-0.14,1.12
0.03,-0.14,1.12
0.03,-0.14,1.12
-0.06,-0.16,1.01
-0.06,-0.16,1.01
-0.06,-0.16,1.01
-0.06,-0.16,1.01
-0.06,-0.16,1.01
-0.06,-0.16,1.01
-0.06,-0.16,1.01
-0.06,-0.16,1.01
-0.03,-0.21,0.89
-0.01,-0.21,0.89
-0.01,-0.21,0.89
-0.01,-0.21,0.89
-0.01,-0.21,0.89
-0.01,-0.21,0.89
-0.01,-0.21,0.89
-0.01,-0.21,0.89
-0.01,-0.21,0.74
0.09,-0.16,0.73
0.09,-0.16,0.73
0.09,-0.16,0.73
0.09,-0.16,0.73
0.09,-0.16,0.73
0.09,-0.16,0.73
0.09,-0.16,0.73
0.09,-0.16,0.73
0.16,-0.13,0.55
0.16,-0.13,0.55
0.16,-0.13,0.55
0.16,-0.13,0.55
0.16,-0.13,0.55
0.16,-0.13,0.55
0.16,-0.13,0.55
0.16,-0.13,0.55
0.16,-0.12,0.40
0.18,-0.12,0.40
0.18,-0.12,0.40
0.18,-0.12,0.40
0.18,-0.12,0.40
0.18,-0.12,0.40
0.18,-0.12,0.40
0.18,-0.12,0.40
0.18,-0.12,0.40
0.19,-0.08,0.25
0.19,-0.08,0.25
0.19,-0.08,0.25
0.19,-0.08,0.25
0.19,-0.08,0.25
0.19,-0.08,0.25
0.19,-0.08,0.25
0.19,-0.08,0.25
0.18,-0.05,0.13
0.18,-0.05,0.13
0.18,-0.05,0.13
0.18,-0.05,0.13
0.18,-0.05,0.13
0.18,-0.05,0.13
0.18,-0.05,0.13
0.18,-0.05,0.13
0.18,-0.02,0.04
0.15,-0.02,0.04
0.15,-0.02,0.04
0.15,-0.02,0.04
0.15,-0.02,0.04
0.15,-0.02,0.04
0.15,-0.02,0.04
0.15,-0.02,0.04
0.15,-0.02,0.04
0.14,-0.02,-0.06
0.14,-0.02,-0.06
0.14,-0.02,-0.06
0.14,-0.02,-0.06
0.14,-0.02,-0.06
0.14,-0.02,-0.06
0.14,-0.02,-0.06
0.14,-0.02,-0.06
0.14,0.04,-0.17
0.13,0.04,-0.17
0.13,0.04,-0.17
0.13,0.04,-0.17
0.13,0.04,-0.17
0.13,0.04,-0.17
0.13,0.04,-0.17
0.13,0.04,-0.17
0.13,0.04,-0.23
0.15,0.07,-0.24
0.15,0.07,-0.24
0.15,0.07,-0.24
0.15,0.07,-0.24
0.15,0.07,-0.24
0.15,0.07,-0.24
0.15,0.07,-0.24
0.15,0.07,-0.24
0.16,0.09,-0.28
0.16,0.09,-0.28
0.16,0.09,-0.28
0.16,0.09,-0.28
0.16,0.09,-0.28
0.16,0.09,-0.28
0.16,0.09,-0.28
0.16,0.09,-0.28
0.16,0.09,-0.31
0.19,0.10,-0.31
0.19,0.10,-0.31
0.19,0.10,-0.31
0.19,0.10,-0.31
0.19,0.10,-0.31
0.19,0.10,-0.31
0.19,0.10,-0.31
0.19,0.10,-0.31
0.21,0.14,-0.34
0.21,0.14,-0.34
0.21,0.14,-0.34
0.21,0.14,-0.34
0.21,0.14,-0.34
0.21,0.14,-0.34
0.21,0.14,-0.34
0.21,0.14,-0.34
0.25,0.15,-0.38
0.25,0.15,-0.38
0.25,0.15,-0.38
0.25,0.15,-0.38
0.25,0.15,-0.38
0.25,0.15,-0.38
0.25,0.15,-0.38
0.25,0.15,-0.38
0.25,0.15,-0.41
0.34,0.12,-0.43
0.34,0.12,-0.43
0.34,0.12,-0.43
0.34,0.12,-0.43
0.34,0.12,-0.43
0.34,0.12,-0.43
0.34,0.12,-0.43
0.34,0.12,-0.43
0.41,0.15,-0.46
0.41,0.15,-0.46
0.41,0.15,-0.46
0.41,0.15,-0.46
0.41,0.15,-0.46
0.41,0.15,-0.46
0.41,0.15,-0.46
0.41,0.15,-0.46
0.35,0.07,-0.45
0.35,0.07,-0.45
0.35,0.07,-0.45
0.35,0.07,-0.45
0.35,0.07,-0.45
0.35,0.07,-0.45
0.35,0.07,-0.45
0.35,0.07,-0.45
0.35,0.07,-0.48
0.28,0.06,-0.47
0.28,0.06,-0.47
0.28,0.06,-0.47
0.28,0.06,-0.47
0.28,0.06,-0.47
0.28,0.06,-0.47
0.28,0.06,-0.47
0.28,0.06,-0.47
0.34,0.15,-0.49
0.34,0.15,-0.49
0.34,0.15,-0.49
0.34,0.15,-0.49
0.34,0.15,-0.49
0.34,0.15,-0.49
0.34,0.15,-0.49
0.34,0.15,-0.49
0.28,0.11,-0.48
0.28,0.11,-0.48
0.28,0.11,-0.48
0.28,0.11,-0.48
0.28,0.11,-0.48
0.28,0.11,-0.48
0.28,0.11,-0.48
0.28,0.11,-0.48
0.28,0.11,-0.48
0.18,0.08,-0.49
0.18,0.08,-0.49
0.18,0.08,-0.49
0.18,0.08,-0.49
0.18,0.08,-0.49
0.18,0.08,-0.49
0.18,0.08,-0.49
0.18,0.08,-0.49
0.17,0.10,-0.51
0.17,0.10,-0.51
0.17,0.10,-0.51
0.17,0.10,-0.51
0.17,0.10,-0.51
0.17,0.10,-0.51
0.17,0.10,-0.51
0.17,0.10,-0.51
0.17,0.09,-0.46
0.13,0.09,-0.46
0.13,0.09,-0.46
0.13,0.09,-0.46
0.13,0.09,-0.46
0.13,0.09,-0.46
0.13,0.09,-0.46
0.13,0.09,-0.46
0.13,0.09,-0.46
0.08,0.11,-0.42
0.08,0.11,-0.42
0.08,0.11,-0.42
0.08,0.11,-0.42
0.08,0.11,-0.42
0.08,0.11,-0.42
0.08,0.11,-0.42
0.08,0.11,-0.42
0.03,0.09,-0.39
0.03,0.09,-0.39
0.03,0.09,-0.39
0.03,0.09,-0.39
0.03,0.09,-0.39
0.03,0.09,-0.39
0.03,0.09,-0.39
0.03,0.09,-0.39
0.03,0.09,-0.32
0.02,0.09,-0.32
0.02,0.09,-0.32
0.02,0.09,-0.32
0.02,0.09,-0.32
0.02,0.09,-0.32
0.02,0.09,-0.32
0.02,0.09,-0.32
0.02,0.09,-0.32
0.03,0.04,-0.19
0.03,0.04,-0.19
0.03,0.04,-0.19
0.03,0.04,-0.19
0.03,0.04,-0.19
0.03,0.04,-0.19
0.03,0.04,-0.19
0.03,0.04,-0.19
0.04,0.03,-0.09
0.04,0.03,-0.09
0.04,0.03,-0.09
0.04,0.03,-0.09
0.04,0.03,-0.09
0.04,0.03,-0.09
0.04,0.03,-0.09
0.04,0.03,-0.09
0.04,0.03,0.03
0.07,0.00,0.03
0.07,0.00,0.03
0.07,0.00,0.03
0.07,0.00,0.03
0.07,0.00,0.03
0.07,0.00,0.03
0.07,0.00,0.03
0.07,0.00,0.03
0.11,-0.03,0.19
0.11,-0.03,0.19
0.11,-0.03,0.19
0.11,-0.03,0.19
0.11,-0.03,0.19
0.11,-0.03,0.19
0.11,-0.03,0.19
0.11,-0.03,0.19
0.15,-0.09,0.36
0.15,-0.09,0.36
0.15,-0.09,0.36
0.15,-0.09,0.36
0.15,-0.09,0.36
0.15,-0.09,0.36
0.15,-0.09,0.36
0.15,-0.09,0.36
0.15,-0.09,0.51
0.14,-0.13,0.51
0.14,-0.13,0.51
0.14,-0.13,0.51
0.14,-0.13,0.51
0.14,-0.13,0.51
0.14,-0.13,0.51
0.14,-0.13,0.51
0.14,-0.13,0.51
0.09,-0.15,0.63
0.09,-0.15,0.63
0.09,-0.15,0.63
0.09,-0.15,0.63
0.09,-0.15,0.63
0.09,-0.15,0.63
0.09,-0.15,0.63
0.09,-0.15,0.63
0.02,-0.16,0.76
0.01,-0.16,0.76
0.01,-0.16,0.76
0.01,-0.16,0.76
0.01,-0.16,0.76
0.01,-0.16,0.76
0.01,-0.16,0.76
0.01,-0.16,0.76
0.01,-0.16,0.76
-0.14,-0.16,0.84
-0.14,-0.16,0.84
-0.14,-0.16,0.84
-0.14,-0.16,0.84
-0.14,-0.16,0.84
-0.14,-0.16,0.84
-0.14,-0.16,0.84
-0.14,-0.16,0.84
-0.25,-0.18,0.96
-0.25,-0.18,0.96
-0.25,-0.18,0.96
-0.25,-0.18,0.96
-0.25,-0.18,0.96
-0.25,-0.18,0.96
-0.25,-0.18,0.96
-0.25,-0.18,0.96
-0.32,-0.15,1.07
-0.34,-0.15,1.07
-0.34,-0.15,1.07
-0.34,-0.15,1.07
-0.34,-0.15,1.07
-0.34,-0.15,1.07
-0.34,-0.15,1.07
-0.34,-0.15,1.07
-0.34,-0.15,1.07
-0.41,-0.18,1.22
-0.41,-0.18,1.22
-0.41,-0.18,1.22
-0.41,-0.18,1.22
-0.41,-0.18,1.22
-0.41,-0.18,1.22
-0.41,-0.18,1.22
-0.41,-0.18,1.22
-0.41,-0.17,1.36
-0.41,-0.17,1.36
-0.41,-0.17,1.36
-0.41,-0.17,1.36
-0.41,-0.17,1.36
-0.41,-0.17,1.36
-0.41,-0.17,1.36
-0.41,-0.17,1.36
-0.31,-0.14,1.45
-0.33,-0.14,1.45
-0.33,-0.14,1.45
-0.33,-0.14,1.45
-0.33,-0.14,1.45
-0.33,-0.14,1.45
-0.33,-0.14,1.45
-0.33,-0.14,1.45
-0.33,-0.14,1.45
-0.21,-0.11,1.64
-0.21,-0.11,1.64
-0.21,-0.11,1.64
-0.21,-0.11,1.64
-0.21,-0.11,1.64
-0.21,-0.11,1.64
-0.21,-0.11,1.64
-0.21,-0.11,1.64
-0.13,-0.09,1.85
-0.13,-0.09,1.85
-0.13,-0.09,1.85
-0.13,-0.09,1.85
-0.13,-0.09,1.85
-0.13,-0.09,1.85
-0.13,-0.09,1.85
-0.13,-0.09,1.85
-0.13,0.03,2.01
-0.03,0.03,2.01
-0.03,0.03,2.01
-0.03,0.03,2.01
-0.03,0.03,2.01
-0.03,0.03,2.01
-0.03,0.03,2.01
-0.03,0.03,2.01
-0.03,0.03,2.01
0.07,0.04,2.31
0.07,0.04,2.31
0.07,0.04,2.31
0.07,0.04,2.31
0.07,0.04,2.31
0.07,0.04,2.31
0.07,0.04,2.31
0.07,0.04,2.31
0.10,0.05,2.67
0.10,0.05,2.67
0.10,0.05,2.67
0.10,0.05,2.67
0.10,0.05,2.67
0.10,0.05,2.67
0.10,0.05,2.67
0.10,0.05,2.67
0.10,0.05,3.03
0.00,0.00,3.03
0.00,0.00,3.03
0.00,0.00,3.03
0.00,0.00,3.03
0.00,0.00,3.03
0.00,0.00,3.03
0.00,0.00,3.03
0.00,0.00,3.03
-0.13,-0.03,3.32
-0.13,-0.03,3.32
-0.13,-0.03,3.32
-0.13,-0.03,3.32
-0.13,-0.03,3.32
-0.13,-0.03,3.32
-0.13,-0.03,3.32
-0.13,-0.03,3.32
-0.14,-0.01,3.48
-0.14,-0.01,3.48
-0.14,-0.01,3.48
-0.14,-0.01,3.48
-0.14,-0.01,3.48
-0.14,-0.01,3.48
-0.14,-0.01,3.48
-0.14,-0.01,3.48
-0.14,-0.01,3.38
-0.18,0.06,3.40
-0.18,0.06,3.40
-0.18,0.06,3.40
-0.18,0.06,3.40
-0.18,0.06,3.40
-0.18,0.06,3.40
-0.18,0.06,3.40
-0.18,0.06,3.40
-0.23,0.04,3.26
-0.23,0.04,3.26
-0.23,0.04,3.26
-0.23,0.04,3.26
-0.23,0.04,3.26
-0.23,0.04,3.26
-0.23,0.04,3.26
-0.23,0.04,3.26
-0.23,0.08,3.12
-0.22,0.08,3.12
-0.22,0.08,3.12
-0.22,0.08,3.12
-0.22,0.08,3.12
-0.22,0.08,3.12
-0.22,0.08,3.12
-0.22,0.08,3.12
-0.22,0.08,3.02
-0.18,0.09,3.02
-0.18,0.09,3.02
-0.18,0.09,3.02
-0.18,0.09,3.02
-0.18,0.09,3.02
-0.18,0.09,3.02
-0.18,0.09,3.02
-0.18,0.09,3.02
-0.29,0.07,2.90
-0.29,0.07,2.90
-0.29,0.07,2.90
-0.29,0.07,2.90
-0.29,0.07,2.90
-0.29,0.07,2.90
-0.29,0.07,2.90
-0.29,0.07,2.90
-0.35,0.08,2.78
-0.36,0.08,2.78
-0.36,0.08,2.78
-0.36,0.08,2.78
-0.36,0.08,2.78
-0.36,0.08,2.78
-0.36,0.08,2.78
-0.36,0.08,2.78
-0.36,0.08,2.78
-0.39,0.09,2.68
-0.39,0.09,2.68
-0.39,0.09,2.68
-0.39,0.09,2.68
-0.39,0.09,2.68
-0.39,0.09,2.68
-0.39,0.09,2.68
-0.39,0.09,2.68
-0.49,0.05,2.54
-0.49,0.05,2.54
-0.49,0.05,2.54
-0.49,0.05,2.54
-0.49,0.05,2.54
-0.49,0.05,2.54
-0.49,0.05,2.54
-0.49,0.05,2.54
-0.49,0.02,2.38
-0.54,0.02,2.38
-0.54,0.02,2.38
-0.54,0.02,2.38
-0.54,0.02,2.38
-0.54,0.02,2.38
-0.54,0.02,2.38
-0.54,0.02,2.38
-0.54,0.02,2.38
-0.55,-0.03,2.23
-0.55,-0.03,2.23
-0.55,-0.03,2.23
-0.55,-0.03,2.23
-0.55,-0.03,2.23
-0.55,-0.03,2.23
-0.55,-0.03,2.23
-0.55,-0.03,2.23
-0.47,-0.00,2.06
-0.47,-0.00,2.06
-0.47,-0.00,2.06
-0.47,-0.00,2.06
-0.47,-0.00,2.06
-0.47,-0.00,2.06
-0.47,-0.00,2.06
-0.47,-0.00,2.06
-0.47,-0.00,1.93
-0.36,-0.02,1.93
-0.36,-0.02,1.93
-0.36,-0.02,1.93
-0.36,-0.02,1.93
-0.36,-0.02,1.93
-0.36,-0.02,1.93
-0.36,-0.02,1.93
-0.36,-0.02,1.93
-0.27,-0.07,1.82
-0.27,-0.07,1.82
-0.27,-0.07,1.82
-0.27,-0.07,1.82
-0.27,-0.07,1.82
-0.27,-0.07,1.82
-0.27,-0.07,1.82
-0.27,-0.07,1.82
-0.24,-0.08,1.57
-0.24,-0.08,1.57
-0.24,-0.08,1.57
-0.24,-0.08,1.57
-0.24,-0.08,1.57
-0.24,-0.08,1.57
-0.24,-0.08,1.57

